File: StretchedNMF_data+code/data/MgMnO_YCl/XRD_MgMnO_YCl_preprocessed.csv
0,0,0,0,0,0,0,0,0,0,0,0,0,0,0,0,0,0,0,0,0,0
3,0.026532,0,0,0,0,0,0,0,0,0,0,0,0,0,0,0,0,0,0,0,0
6,0.053064,0,0,0,0,0,0,0,0,0,0,0,0,0,0,0,0,0,0,0,0
9,0.079596,0,0,0,0,0,0,0,0,0,0,0,0,0,0,0,0,0,0,0,0
12,0.10613,0,0,0,0,0,0,0,0,0,0,0,0,0,0,0,0,0,0,0,0
15,0.13266,0,0,0,0,0,0,0,0,0,0,0,0,0,0,0,0,0,0,0,0
18,0.15919,0,0,0,0,0,0,0,0,0,0,0,0,0,0,0,0,0,0,0,0
21,0.18572,0,0,0,0,0,0,0,0,0,0,0,0,0,0,0,0,0,0,0,0
24,0.21226,0,0,0,0,0,0,0,0,0,0,0,0,0,0,0,0,0,0,0,0
27,0.23879,0,0,0,0,0,0,0,0,0,0,0,0,0,0,0,0,0,0,0,0
30,0.26532,0,0,0,0,0,0,0,0,0,0,0,0,0,0,0,0,0,0,0,0
33,0.29185,0,0,0,0,0,0,0,0,0,0,0,0,0,0,0,0,0,0,0,0
36,0.31838,0,0,0,0,0,0,0,0,0,0,0,0,0,0,0,0,0,0,0,0
39,0.34492,0,0,0,0,0,0,0,0,0,0,0,0,0,0,0,0,0,0,0,0
42,0.37145,0,0,0,0,0,0,0,0,0,0,0,0,0,0,0,0,0,0,0,0
45,0.39798,0.61254,2.7001,1.4674,0.85821,2.3691,1.4218,0.4936,0.71983,0.67099,0,1.6192,0.54792,0.029568,0.38947,0,0.33188,1.2486,1.0816,0.18922,0.3236
48,0.42451,0,0,0,0,0,0,0,0,0,0,0,0,0,0,0,0,0,0,0,0
51,0.45104,0.066685,0.83972,0,0,0,0,0,0,0,0.50004,0.014845,0,0.2928,0,0,0,0,0.25811,0,0.90825
54,0.47758,0,0,0.0075276,0,0.13768,0.079721,0.33997,0.036873,0,0.25531,0.10883,0,0,0,0,0,0,0,0,0
57,0.50411,0,0,0,0,0,0,0,0,0,0,0,0,0,0,0,0,0,0,0,0
60,0.53064,0,0,0.10558,0,0,0,0,0,0,0,0,0,0,0,0,0,0,0,0,0
63,0.55717,0,0.10765,0,0,0,0.013666,0,0,0,0,0,0,0,0,0.05666,0,0,0,0,0
66,0.58371,0.020823,0,0,0,0,0,0,0,0,0,0,0,0,0,0,0,0,0,0,0
69,0.61024,0,0,0.56929,0,0.6291,0.22427,0,1.4785,0,1.155,0.039188,0,0,0,0,0,0,0,0,0
72,0.63677,11.314,9.1355,26.009,15.381,23.663,21.381,13.999,27.821,6.0891,19.609,17.591,13.743,5.6414,8.042,5.1433,7.0869,5.4575,12.191,3.1577,6.7712
75,0.6633,111.3,96.677,194.81,123.64,157.07,151.96,106.84,179.19,54.834,88.802,110.92,93.418,53.699,65.603,53.782,58.882,51.595,91.353,38.85,64.122
78,0.68983,6.2056,5.8122,19.234,12.198,18.554,17.585,12.353,25.668,5.9852,15,20.878,17.851,8.6972,10.931,9.6115,11.049,9.2298,19.355,6.4832,12.393
81,0.71637,0,0,0,0,0,0,0,0,0,0,0,0,0,0,0,0,0,0,0,0
84,0.7429,0,0,0,0,0,0,0,0,0,0,0,0,0,0,0,0,0,0,0,0
87,0.76943,0,0,0,0,0,0,0,0,0,0,0,0.0654,0,0,0,0,0.078647,0,0.00044889,0
90,0.79596,0,0.0026469,0,0,0,0,0,0,0,0,0,0,0,0,0,0,0,0,0.2504,0.14392
93,0.82249,0,0,0,0,0,0,0,0.025069,0,0,0,0,0,0,0,0,0,0,0,0
96,0.84903,0,0,0,0,0,0,0,0,0,0,0,0,0,0,0,0,0,0,0,0
99,0.87556,0,0,0.91316,0,0,0.70308,0,1.5959,0,0,0,0,0,0,0,0,0,0,0,0
102,0.90209,20.716,15.446,34.687,25.011,25.486,30.742,19.451,40.488,7.265,10.68,20.571,17.603,9.4053,10.86,9.1613,11.03,8.0402,21.128,5.5502,11.895
105,0.92862,268.71,225.55,394.37,304.56,315.45,356.19,254.99,431.9,131.87,178.1,257.37,229.28,153.38,168.34,151.89,166.53,138.07,252.15,111.51,173.87
108,0.95515,300.81,273.76,478.34,405.42,441.06,521.48,396.04,686.26,225.54,330.71,457.92,422.74,291.67,326.07,308.12,334.97,290.33,521.3,240.98,367.2
111,0.98169,10.556,7.072,17.902,13.85,15.886,19.713,13.316,29.76,5.0501,9.1974,18.199,16.203,8.5751,10.819,10.239,12.657,9.6697,24.895,7.9617,14.87
114,1.0082,0,0,0,0,0,0,0,0,0,0,0,0,0,0,0,0,0,0,0,0
117,1.0348,0,0,0,0,0,0,0,0,0,0,0,0,0,0,0,0,0,0,0,0
120,1.0613,0,0,0,0,0,0,0,0,0,0,0,0,0,0,0,0,0,0,0,0
123,1.0878,0,0,0,0,0,0,0,0,0,0,0,0,0,0,0.0062552,0,0,0,0,0
126,1.1143,0,0,0,0,0,0,0,0,0,0,0,0,0,0,0,0,0,0,0,0
129,1.1409,0,0,0,0,0,0,0,0,0,0,0,0,0,0,0,0,0,0,0,0
132,1.1674,0,0,0,0,0,0,0,0,0,0,0,0,0,0,0,0,0,0,0,0
135,1.1939,0,0,0,0,0,0,0,0,0,0,0,0,0,0,0,0,0,0,0,0
138,1.2205,0,0,0,0,0,0,0,0,0,0,0,0,0,0,0,0,0,0,0,0
141,1.247,0.7738,0.19497,2.401,1.519,1.2151,2.0292,0.36055,3.2619,0,0,0,0,0,0,0,0,0,0.1988,0,0
144,1.2735,364.44,304.68,477.87,371.6,370.21,356.77,300.15,442.37,143.7,186.22,243.85,232.91,169.82,164.32,149.43,192.94,136.02,253.6,115.99,174.28
147,1.3001,151.42,141.61,254.79,244.51,248.99,288.32,264.2,439.94,146.03,223.64,300.46,293.25,214.27,229.26,221.3,288.34,207.14,404.66,195.31,277.21
150,1.3266,9.0577,6.4885,20.591,12.137,14.276,16.143,10.463,26.673,1.0856,6.7357,10.655,8.9954,3.2414,5.073,2.3898,5.7291,1.6662,11.716,1.1567,5.4222
153,1.3531,0,0,0.84455,0,0.6015,0.48669,0,1.9798,0,0,0.87075,0.33397,0,0,0,0,0,1.0235,0,0
156,1.3797,0,0,0.034452,0,0,0,0,0,0.18895,0,0,0,0,0,0,0,0.83912,0,1.5489,0
159,1.4062,0.06516,1.1757,3.2524,2.6736,0.36168,0.0052773,1.2164,0.1556,0.11076,0.026181,0,0,3.6381,0.051687,1.6791,0.027859,5.572,4.4294,7.9142,2.2616
162,1.4327,0.76481,3.9343,8.822,7.4803,4.6685,0.92837,5.088,4.0335,0.67753,1.5725,1.1665,1.5334,9.1922,1.7164,6.0721,1.8577,11.955,10.16,15.245,6.4598
165,1.4593,2.1273,7.2589,14.281,11.879,7.6507,1.9646,8.5694,7.5297,2.232,3.8287,3.8135,4.0027,13.672,4.0299,9.5285,3.9906,18.167,16.414,22.36,10.705
168,1.4858,2.1593,8.6408,16.942,14.807,9.7882,2.9051,11.191,9.459,2.6101,4.8672,4.3667,5.3657,16.171,4.5816,12.282,5.2173,21.321,20.276,26.971,13.045
171,1.5123,2.6785,9.4168,17.837,15.776,14.888,2.7873,11.913,10.578,2.5484,4.8848,4.9262,5.8482,16.538,5.5012,12.332,5.3499,21.896,22.865,27.566,13.814
174,1.5389,1.5563,6.85,14.683,12.747,10.646,1.529,9.2007,7.8885,1.4986,4.0249,3.2506,3.9882,13.491,4.3829,10.206,3.6596,18.994,20.348,24.524,11.312
177,1.5654,0.31853,3.3469,9.9823,8.4384,4.9747,0.32217,5.0413,4.717,0.11687,1.0192,1.26,1.5206,9.913,1.7882,6.6883,1.7502,13.941,13.401,18.643,7.4129
180,1.5919,1.0835,2.3484,7.2273,4.9731,3.0453,0,1.8583,1.586,0,0.36243,0.24098,0.66383,5.3855,0.68322,3.1547,0.28876,8.7188,8.4325,12.159,3.6221
183,1.6185,0.74878,0.13592,3.2234,2.1587,0.85758,0,0.24606,0,0,0,0,0,1.3494,0,0,0,3.344,3.0008,5.1009,0
186,1.645,0,0,0,0,0,0,0,0,0,0,0,0,0,0,0,0,0.80958,0.41624,1.8131,0.029181
189,1.6715,0.52741,0.075112,0,0,0,0,0.048305,0,0,0,0,0,0,0,0,0,0,0,0,0
192,1.6981,0,0,0,0,0,0,0,0,0,0,0,0,0,0,0,0,0,0,0,0
195,1.7246,0,0,0,0,0,0,0,0,0,0,0,0,0,0,0,0,0,0,0,0
198,1.7511,0,0,0,0,0,0,0,0,0,0,0,0,0,0,0,0,0,0,0,0
201,1.7776,0,0,0,0,0,0,0,0,0,0,0,0,0,0,0,0,0,0,0,0
204,1.8042,0.078933,0,0,0,0,0,0,0.071316,0,0,0,0,0,0,0,0,0,0,0,0
207,1.8307,112.07,72.621,124.58,87.6,81.826,91.546,59.94,97.776,25.366,32.617,51.968,44.405,26.762,29.212,25.386,27.545,21.662,44.821,16.977,28.437
210,1.8572,928.7,804.17,1393,1151.3,1221.5,1416,1041.6,1706.3,586.42,804.39,1090.7,991.36,691.63,747.4,695.52,744.01,636.4,1088.9,523.15,775.27
213,1.8838,73.403,69.168,130.22,115.37,130.14,161.14,125.86,229.28,73.09,109.05,169.93,161.11,113.47,132.22,125.13,138.89,121.16,233.74,107.83,157.87
216,1.9103,0.91395,0.8255,3.7989,4.0199,4.9525,8.8856,5.8399,15.599,2.072,4.5251,10.033,9.9833,6.1133,7.9999,7.5327,8.7035,7.3899,19.382,5.8338,11.052
219,1.9368,4.7618,2.3208,9.085,3.8391,6.2758,5.7594,2.8912,5.1882,0.88448,2.6268,3.1061,2.203,0.5122,1.3478,0,0.70865,0.29924,0.69038,0,0.35228
222,1.9634,15.567,11.936,24.858,11.787,17.323,15.044,8.6208,15.073,3.9833,8.1269,9.3152,7.9193,3.4649,4.931,3.9686,4.894,3.4931,6.4328,2.2479,4.5691
225,1.9899,2.058,0.47617,4.8442,0,2.211,0.87615,0,0.25444,0,0,0,0,0,0,0,0,0,0,0,0
228,2.0164,0,0,0,0,0,0,0,0,0,0,0,0,0,0,0,0,0,0.4831,0,0
231,2.043,88.483,75.701,111.24,85.358,89.302,79.08,66.749,99.468,33.682,44.695,56.696,52.969,38.489,38.1,33.998,44.348,30.694,56.96,26.187,39.025
234,2.0695,1.9599,2.6802,5.6013,5.4914,6.6113,7.7852,7.7312,15.254,4.1504,7.9074,10.905,10.299,7.5472,8.7162,7.6517,10.687,7.3197,16.149,7.1558,10.199
237,2.096,0.672,0,0,0,0,0,0,0,0,0,0,0,0,0,0,0,0,0,0,0
240,2.1226,1.116,0.28562,2.9596,3.2536,3.0343,4.8419,4.6356,7.4775,1.9984,4.589,7.098,6.66,3.8832,3.1256,4.0467,5.8282,3.5348,9.1338,3.5435,6.1266
243,2.1491,0,0,0,0,0,0,0,0,0,0,0,0,0,0,0,0,0,0,0,0
246,2.1756,13.496,10.708,17.408,10.254,11.709,9.4312,6.6766,11.245,2.8146,4.2557,5.4762,4.7731,3.418,3.6534,2.7178,3.6428,2.5268,4.8799,1.777,3.1332
249,2.2022,12.583,12.187,21.81,19.305,20.832,21.261,18.708,31.98,10.543,16.88,21.338,20.099,14.506,14.954,14.696,19.784,14.12,27.677,12.716,18.719
252,2.2287,33.334,18.096,33.065,21.632,18.863,21.148,12.525,21.115,4.4356,5.7718,10.059,7.9782,4.3577,4.4863,3.7746,4.2818,2.8076,7.8748,1.9549,4.4223
255,2.2552,1364,1049.2,1780.8,1374.7,1358,1520.9,1058.1,1631.4,555.66,714.15,938.81,831.3,564.47,576.77,533.44,571.84,468.34,792.48,382.6,569.02
258,2.2818,534.38,480.86,766.12,635.6,687.8,709.99,599.02,971.74,336.87,479.2,684.89,665.4,484.37,531.55,508.45,587.44,490.49,899.38,435.8,617.14
261,2.3083,55.775,58.808,109,109.02,120.19,147.12,141.48,245.74,83.099,130.06,182.2,178.23,129.15,149.85,138.45,178.65,133.97,265.03,124.22,177.56
264,2.3348,1.3151,0,0.85944,0.90617,1.8035,2.4506,3.1561,7.6829,0.10602,1.8733,4.1873,3.5262,1.5671,3.6249,1.7461,3.5324,1.8879,6.7517,1.3553,3.2753
267,2.3614,0,0,0,0,0,0,0,0,0,0,0,0,0,0,0,0,0,0,0,0
270,2.3879,0,0,0.56283,0,0,0,0,0.37778,0,0,0,0,0,0,0,0,0,0,0,0
273,2.4144,24.55,14.559,37.986,23.735,24.382,28.936,14.896,36.171,2.5895,5.7086,14.064,11.021,3.6361,5.2499,3.4059,4.4269,2.7394,13.175,1.2807,5.2875
276,2.4409,264.23,189.86,332.98,238.77,231.95,257.04,171.3,288.28,75.786,100.37,156.02,134.31,83.698,92.039,79.152,88.412,70.08,139.89,54.56,90.164
279,2.4675,1712.3,1426,2458.8,1936.1,1973.5,2226.4,1593.7,2576.8,841,1124.5,1527.7,1358.8,928.04,987.97,895.73,970.17,805.09,1394,651.87,985.75
282,2.494,277.7,272.57,519.97,489.18,579.06,734.95,611.3,1134.8,388.02,616.91,913.01,883.65,625.57,718.92,707.47,795.71,699.83,1311.1,622.39,910.26
285,2.5205,172.14,141.05,223.93,163.94,176.74,170.87,137.42,238.18,56.661,88.833,136.47,127.4,83.819,94.098,79.956,103.34,76.692,169.39,62.814,106.13
288,2.5471,388.54,372.79,632.32,575.1,610.66,637.73,569.2,916.34,309.45,457.97,600.76,570.91,416.71,434.75,408.8,522.06,377.83,723.98,339.38,496.4
291,2.5736,86.011,82.619,149.91,135.05,143.27,151.34,133.34,220.2,66.414,100.5,135.33,128.96,90.548,94.295,86.957,115.19,79.758,163.74,69.599,107.32
294,2.6001,0,0,0,0,0,0,0,2.6935,0,0,0,0.026033,0,0,0,0,0,2.9606,0,0
297,2.6267,0,0,0,0,0,0,0,0,0,0,0,0,0,0,0,0,0,0,0,0
300,2.6532,24.887,18.823,29.057,17.504,18.128,14.337,9.4432,15.029,2.4493,3.2653,4.6524,5.0171,2.2771,1.8395,1.7329,2.7179,1.3985,4.8614,0.61152,2.2766
303,2.6797,226.24,204.88,346.97,297.7,303.07,305.28,258.14,387.79,129.98,173.02,223.17,210.53,151.48,138.76,137.71,175.24,123.31,229.71,106.43,159.61
306,2.7063,7.9561,8.2827,18.478,18.854,21.31,27.927,26.967,52.437,15.471,27.305,39.209,39.081,28.142,35.243,30.522,41.184,29.617,62.322,27.363,40.92
309,2.7328,0,0,0,0,0,0,0,0.33128,0,0,0,0,0,0,0,0,0,0,0,0
312,2.7593,0,0,0,0,0,0,0,0,0,0,0,0,0,0,0,0,0,0,0,0
315,2.7859,0,0,0,0,0,0,0,0,0,0,0,0,0,0,0,0,0,0,0,0
318,2.8124,14.964,11.215,21.664,14.828,14.332,16.159,9.8796,17.668,2.9134,4.5892,7.8608,5.8567,2.6546,5.4643,2.7909,2.9144,2.0924,5.1013,1.1654,2.6654
321,2.8389,17.956,17.241,35.16,30.9,35.945,44.479,33.807,61.72,17.943,28.442,40.595,37.419,24.248,27.503,25.521,27.664,23.623,45.175,18.886,31.036
324,2.8655,0,0,0,0,0,0,0,1.2817,0,0,0.91732,1.1817,0.12134,0.66817,0.62035,1.0493,0.86654,3.6281,0.57109,1.8718
327,2.892,0.0067202,0,0.46531,0,0,0,0,0,0,0,0,0,0,0,0,0,0,0,0,0
330,2.9185,63.885,41.438,73.118,48.397,44.689,48.811,28.886,49.393,10.335,14.127,23.013,18.503,10.12,10.58,8.8792,10.36,7.0106,17.572,4.7043,10.198
333,2.9451,257.82,236.98,424.11,355.96,384.08,448.69,329.25,549.69,181.19,252.92,343.55,312.81,212.68,228.69,209.35,226.14,189.08,330.55,152.07,233.51
336,2.9716,26.904,21.268,44.696,38.512,43.3,58.077,44.789,91.903,25.434,45.725,78.423,76.965,51.621,62.366,61.504,70.508,63.074,129.82,56.346,86.202
339,2.9981,5.3791,4.0494,14.769,15.793,13.283,23.392,18.572,40.256,9.3155,19.65,32.423,31.431,17.602,16.573,21.046,31.093,18.856,49.588,18.964,31.798
342,3.0247,0,0,0,0,0,0,0,0,0,0,0,0,0,0,0,0.11507,0,1.8925,0,0
345,3.0512,0,0,0,0,0,0,0,0,0,0,0,0,0,0,0,0,0,0,0,0
348,3.0777,72.742,58.748,83.267,60.375,59.622,53.598,44.093,65.286,18.313,24.042,32.35,30.047,21.071,26.404,17.788,23.717,15.821,60.056,12.31,20.928
351,3.1043,213.6,205.59,351.33,324.08,338.12,358.42,320.92,505.3,176.74,255.1,331.71,316.16,234.6,242.38,228.9,290.53,211.38,393.08,189.63,273.95
354,3.1308,0,0,0.69418,1.9217,2.601,3.3932,3.7058,7.6163,1.162,3.2905,5.1537,5.284,3.0222,2.6427,3.6404,5.6223,3.4719,9.1274,3.4857,5.1509
357,3.1573,42.133,27.69,46.92,31.492,28.262,26.501,17.717,26.402,6.0132,7.5803,10.961,9.6813,5.4388,5.0842,4.0159,5.6113,2.9474,7.8853,1.7135,4.3505
360,3.1838,571.43,382.43,634.74,449.57,401.61,434.11,278.74,413.61,129.75,162.18,212.13,182.81,117.96,118.95,107.68,119.34,92.455,165.18,75.819,115.06
363,3.2104,156.9,182.03,352.5,349.37,445.12,562.25,478.27,868.31,313.82,475.37,690.71,666.56,483.44,553.82,531.46,571.13,507.01,899.02,434.92,630.5
366,3.2369,6.7171,4.0631,15.982,12.106,15.183,21.335,15.216,36.441,4.9464,11.315,26.601,26.032,15.33,21.242,18.616,22.477,19.324,43.218,14.875,26.128
369,3.2634,0,0,1.8421,2.2752,3.1201,5.763,4.2158,11.102,1.3614,3.3278,7.6507,7.4193,3.6668,5.8276,5.1593,5.6226,4.095,13.437,2.1034,7.4754
372,3.29,13.064,7.3127,20.109,10.514,11.476,12.213,6.7521,11.526,2.2422,3.6932,5.1703,3.6181,0.5175,0.30782,0,0,0,0,0,0
375,3.3165,105.14,72.111,134.15,88.47,95.341,95.42,62.85,99.342,29.415,49.366,60.639,51.664,28.905,33.637,29.643,32.794,27.75,47.79,20.117,32.607
378,3.343,43.895,47.853,97.154,87.67,110.2,129.7,104.49,186.24,61.055,102.24,134.34,123.43,84.563,96.477,88.963,96.965,82.551,147.1,67.52,101.57
381,3.3696,2.8004,1.9702,10.295,6.8221,9.9678,11.666,7.9094,19.325,3.1867,9.2818,13.882,12.26,6.9135,8.4919,7.9523,10.513,8.0729,18.438,6.2798,10.566
384,3.3961,0,0,0,0,0,0,0,0,0,0,0,0,0,0,0,0,0,0,0,0
387,3.4226,0,0,0,0,0,0,0,0,0,0,0,0,0,0,0,0,0,0,0,0
390,3.4492,8.6101,6.7248,9.3888,5.8771,5.5504,4.1365,3.0082,4.0739,0.63854,0.68323,0.7229,0.64882,0.049895,0,0,0,0,0,0,0
393,3.4757,0,0,0.60319,1.7026,2.3595,3.4233,3.5689,7.3185,2.2207,4.0305,5.5371,4.9606,3.399,3.5414,3.6268,4.8382,3.514,7.9514,3.2634,5.0562
396,3.5022,30.551,22.85,26.921,14.998,15.107,8.7266,6.0117,7.5601,0.77939,0.98608,1.4914,1.316,0.33931,0,0,0.059837,0,0.40147,0,0
399,3.5288,68.715,69.769,125.68,120.52,126.35,138.15,123.51,194.32,66.869,94.301,121.41,114.71,83.659,77.733,77.992,100.01,70.665,133.32,61.973,91.911
402,3.5553,0,0,0,0,0.5909,2.3003,3.0534,7.5734,1.6713,4.4838,7.2269,7.0345,4.9894,7.7969,5.9646,8.7045,5.9261,25.715,5.6884,8.6984
405,3.5818,9.7009,5.236,11.458,6.0482,4.918,5.3157,2.0873,4.1739,0,0,0,0,0,0,0,0,0,0,0,0
408,3.6084,176.08,135.4,232.87,169.63,163.23,176.42,116.28,182.68,54.204,67.579,91.698,78.342,51.002,53.236,45.589,49.464,38.335,67.976,28.82,46.284
411,3.6349,60.604,68.196,129.67,130.13,161.64,208.78,172.03,313.4,110.97,170.61,238.21,226.62,161.46,182.27,174.87,189.06,165.99,295.62,138.58,210.56
414,3.6614,6.8914,0,0,0,0,0,0,0,0,0,2.1349,3.4718,2.4757,4.5922,5.3418,6.6825,6.974,16.654,6.6822,10.561
417,3.688,305.22,230.54,388.17,288,271.08,292.68,190.65,280.01,88.582,109.17,136.96,116.07,75.39,74.692,66.396,69.893,54.5,91.009,42.229,65.014
420,3.7145,77.044,84.816,157.73,151.28,185.88,226.71,194.11,348.52,124.76,191.17,275.64,267.4,195.05,224.94,214.01,235.53,206.22,368.79,177.54,257.71
423,3.741,0,0,0,0,0.3792,1.8212,2.3529,8.4197,1.7695,4.9548,9.8544,10.232,7.4587,9.7356,9.625,11.211,10.281,21.486,9.0818,13.488
426,3.7676,10.521,8.4546,16.683,12.889,12.557,14.935,9.9565,16.415,3.5351,4.2488,6.2686,6.107,3.0755,2.5393,3.0053,3.6636,2.4539,5.3216,1.8135,3.3693
429,3.7941,0,0,0,0.99633,1.8114,3.7142,3.1404,7.5164,1.8553,4.3171,6.5925,6.3863,4.2585,5.1057,5.489,5.8936,5.5149,11.73,4.5947,8.2131
432,3.8206,0.27011,0,0.2096,0,0,0,0,0,0,0,0,0,0,0,0,0,0,0,0,0
435,3.8471,64.019,53.922,86.009,65.835,66.965,61.475,48.889,73.274,21.688,29.574,37.628,34.522,23.687,22.36,19.842,26.396,17.298,35.512,14.105,23.414
438,3.8737,19.278,12.295,26.469,19.309,14.417,19.126,12.723,22.885,3.6083,9.2624,15.106,12.828,7.0638,6.3091,7.3395,10.984,6.3886,18.493,5.417,11.913
441,3.9002,0,0,1.1872,2.1281,1.7206,4.9967,4.993,13.827,2.747,8.4999,13.6,12.992,7.1582,5.4479,8.8538,13.959,7.8754,22.224,8.06,14.198
444,3.9267,0,0,0,0,0,0,0,0,0,0,0,0,0,0,0,0,0,0,0,0
447,3.9533,0,0,0,0,0,0,0,0,0,0,0,0,0,0,0,0,0,0,0,0
450,3.9798,31.6,22.1,38.456,23.034,23.657,21.794,13.77,27.228,2.4821,4.2837,8.7201,6.4972,2.9761,3.4932,1.7781,3.8531,0.78704,7.6591,0,3.1907
453,4.0063,263.86,212.29,364.1,294.55,295.67,304.85,248.05,394.3,122.15,174.21,231.34,213.21,150.77,155.71,139.46,178.86,125.21,246.82,106.81,165.95
456,4.0329,644.88,520.01,915.89,699.19,684.23,756.89,509.23,796.16,242.41,311.77,418.11,359.44,231.83,235.76,212.87,233.09,181.47,330.91,143.48,226.62
459,4.0594,107.97,116.89,245.77,234.32,304.71,396.73,339.82,657.83,220.22,358.8,546.47,533.08,380.04,445.45,432.27,475.52,423.11,783.28,362.69,540.89
462,4.0859,481.56,395.78,623.01,460.78,463.43,432.6,328.85,500.27,140.54,185.18,259.07,234.88,157.67,156.34,142.2,177.38,127.63,258.58,102.59,168.48
465,4.1125,81.878,90.681,192.42,198.97,237.72,303.1,278.6,516.85,172.11,281.7,394.42,376.88,273.5,304.83,291.93,358.41,278.37,542.07,247.89,370.1
468,4.139,11.754,8.0725,23.245,15.005,18.07,20.436,14.041,37.624,0,6.3072,19.609,16.109,6.8102,11.597,8.287,14.043,7.5179,37.345,5.0116,17.234
471,4.1655,0,0,0,0.041592,1.3857,3.7639,3.4666,11.714,0.43228,3.3205,7.2679,5.8557,3.5034,3.7956,3.9086,6.5628,3.276,14.446,2.4019,6.5624
474,4.1921,0,0,0,0,0,0,0,0,0,0,0,0,0,0,0,0,0,0,0,0
477,4.2186,21.279,10.223,28.024,19.505,10.721,16.191,7.6739,12.183,2.2608,3.2475,5.7099,4.5457,1.541,0.51109,0.98153,2.0105,0,3.8809,0.35271,2.7382
480,4.2451,18.781,8.0692,26.499,17.446,16.373,24.995,18.291,44.093,9.7179,21.246,32.653,30.536,17.491,18.321,20.79,30.773,18.719,47.366,18.39,29.478
483,4.2717,32.434,31.832,67.967,58.869,67.984,83.655,59.453,109.29,31.023,46.898,64.158,56.56,35.678,39.972,35.172,38.405,30.693,59.636,22.897,38.586
486,4.2982,0,0,1.2161,0,1.9838,3.5381,2.7389,11.718,1.3863,4.8634,10.26,10.705,6.2805,9.3142,9.0736,10.274,10.302,24.605,8.3174,14.255
489,4.3247,0,0,0,0,0,0,0,0,0,0,0,0,0,0,0,0,0,0,0,0
492,4.3513,18.554,13.402,21.408,13.496,12.859,11.857,7.6502,14.12,1.3825,2.5339,4.4045,3.3323,1.619,2.0712,0.41942,1.3756,0.0061274,2.8678,0,1.0642
495,4.3778,227.87,191.06,314.27,247.48,247.25,246.3,196.32,301.52,96.114,127.81,168.71,155.44,109.53,113.52,97.883,124.19,88.571,165.36,73.274,113.87
498,4.4043,74.586,72.406,141.35,128.77,146.35,178.72,140.71,248.42,78.821,119.48,165.43,152.38,105.03,110.85,106.94,121.23,97.594,183.52,81.687,126.23
501,4.4309,26.346,24.14,50.009,44.974,48.517,56.482,48.351,87.805,25.114,40.945,62.392,61.299,41.552,45.431,45.493,57.034,45.335,95.003,40.572,63.708
504,4.4574,0,0,0,0,0,0,0,2.3015,0,0.36376,2.0035,2.1028,0.87963,1.237,1.5993,3.0606,1.8688,7.1768,1.7704,3.5458
507,4.4839,6.3403,1.5178,3.5417,0.3746,0,0,0,0,0,0,0,0,0,0,0,0,0,0,0,0
510,4.5104,147.3,112.26,192.23,138.68,127.83,138.93,85.9,129.09,37.027,44.896,58.154,47.776,28.94,28.073,24.566,26.463,20.317,36.418,14.628,24.958
513,4.537,10.517,19.685,50.11,51.546,76.378,102.61,90.806,180.45,59.59,98.657,149.6,146.21,104.62,123.14,118.59,127.94,113.07,208.89,97.102,144.03
516,4.5635,26.452,24.843,43.199,32.29,35.876,35.239,28.903,51.147,10.7,18.035,29.183,27.673,17.982,20.483,17.637,23.923,17.33,40.382,13.101,24.159
519,4.59,0,0,0,0,1.5572,4.167,6.2684,14.871,3.1487,7.0988,10.984,10.923,7.3995,7.2937,8.3021,12.481,7.8466,22.035,7.4594,12.886
522,4.6166,16.542,17.004,30.807,24.528,26.829,31.194,20.685,33.251,9.9278,11.748,14.399,11.883,7.5288,7.9055,6.868,6.6705,5.5207,9.3696,3.7302,6.5898
525,4.6431,0,0,0,0,0.25381,1.1379,1.7215,5.2682,1.2904,3.1761,5.4117,5.7539,4.3917,5.7412,6.0021,5.932,6.3049,13.113,5.4482,8.1957
528,4.6696,4.8852,3.1223,3.9722,1.1205,0.88119,0,0,0,0,0,0,0,0,0,0,0,0,0,0,0
531,4.6962,16.497,15.342,32.102,28.382,29.336,32,26.752,44.942,12.137,18.475,24.835,22.401,15.152,14.658,13.722,18.51,12.157,25.38,9.7248,16.577
534,4.7227,1.6645,1.3926,6.0388,5.0021,6.3846,10.037,6.6938,16.335,1.9233,5.0553,9.466,7.8944,3.8325,5.263,3.7706,5.1517,3.3335,10.802,1.8673,5.7663
537,4.7492,0,0,0,0,0,0,0,0.52713,0,0,0.6677,0.76317,0,0.17645,0.34195,0.60611,0.4691,2.7439,0,1.3307
540,4.7758,0,0,0,0,0,0,0,0,0,0,0,0,0,0,0,0,0,0,0,0
543,4.8023,0.59234,0.40895,0.6047,0,0,0,0,0,0,0,0,0,0,0,0,0,0,0,0,0
546,4.8288,0,0,0,0,0.28728,0.86368,0.97491,2.6417,0.054196,1.0845,1.62,1.4968,1.2082,0.92161,0.86428,1.8363,0.99414,3.099,0.49133,1.5855
549,4.8554,3.1335,0,0.19315,0,0,0,0,0,0,0,0,0,0,0,0,0,0,0,0,0
552,4.8819,48.563,39.987,75.494,56.327,55.202,61.789,37.489,62.165,14.589,19.873,27.44,22.74,12.182,11.166,9.504,10.407,7.537,15.332,4.6749,9.656
555,4.9084,1.744,2.8281,19.342,17.066,25.455,35.465,27.708,65.113,12.67,28.096,49.166,47.964,29.422,34.846,33.603,39.012,31.842,67.798,26.329,44.431
558,4.935,80.538,64.969,114.29,82.388,82.385,80.354,57.343,96.456,18.845,28.522,44.397,38.652,22.049,22.725,17.361,25.592,14.772,37.63,8.6609,22.21
561,4.9615,11.933,10.771,32.633,30.185,36.895,48.933,40.194,84.701,18.942,38.493,60.315,56.733,36.42,40.23,40.025,49.495,36.256,78.676,30.777,51.846
564,4.988,2.2777,2.3717,9.488,8.3661,12.003,16.348,11.386,27.826,3.1813,8.418,15.806,13.401,6.3244,7.0335,6.0291,8.094,5.0499,13.414,1.915,8.7156
567,5.0146,2.0995,0,0,0,0,0,0,0,0,0,0,0,0,0,0,0,0,0.14518,0,0
570,5.0411,103.82,74.553,126.02,87.044,76.082,79.875,47.141,67.833,18.912,21.706,27.817,21.781,12.165,11.323,9.5848,10.16,7.4586,12.121,5.3753,8.9708
573,5.0676,53.247,55.164,102.72,94.309,117.65,139.91,119.54,214.04,74.465,112.4,158.72,150.66,107.6,120.5,114.27,124.19,106.55,186.68,88.978,133.04
576,5.0942,0,0.60499,6.74,9.598,12.826,16.991,16.902,33.339,10.348,20.083,31.031,31.146,22.675,26.841,27.059,33.435,26.843,53.59,24.895,35.731
579,5.1207,70.506,46.78,70.434,42.702,36.902,29.078,19.365,26.881,4.9372,6.0019,8.3522,6.8321,3.161,1.9539,0.5359,1.6739,0,2.0689,0,0.037323
582,5.1472,114.95,108.2,203.97,173.37,180.94,208.7,156.48,256.94,79.682,112.97,150.91,134.45,91.024,94.666,86.274,102.64,76.117,143.47,63.811,97.744
585,5.1738,72.278,56.105,111.25,86.104,92.512,109.09,84.012,157.39,43.823,73.035,113.92,108.4,73.642,87.32,81.388,91.428,78.201,155.44,65.497,102.06
588,5.2003,51.473,52.354,111.07,99.497,115.06,141.97,106.81,193.63,56.039,85.313,122.6,109.8,71.601,79.126,70.372,80.146,64.086,124.43,49.56,81.929
591,5.2268,4.3454,4.0903,15.355,13.957,18.579,27.059,21.012,51.444,10.695,24.15,43.54,42.31,27.12,34.804,33.348,39.231,34.661,77.751,29.65,48.923
594,5.2533,0,0,0,0,0,0,0,4.6036,0,1.3319,4.1195,4.1874,1.9094,2.8356,2.5164,3.5121,2.7356,11.993,1.5652,5.6304
597,5.2799,13.747,11.933,19.793,11.613,10.35,7.3979,4.9883,6.563,0.51726,0,0,0,0,0,0,0,0,0,0,0
600,5.3064,0,0,4.2153,0.60235,1.687,5.2291,5.6283,17.35,3.7906,6.9143,9.7165,10.125,7.8815,7.4454,8.6793,12.224,8.1343,17.394,7.8158,11.908
603,5.3329,6.5232,8.13,22.413,14.313,17.362,21.719,11.644,28.826,4.2688,5.922,8.4383,7.2948,3.4069,3.9998,2.7555,2.438,1.6389,4.2852,0.79581,2.1864
606,5.3595,1.2453,0,10.861,6.599,7.7469,11.023,7.6889,24.617,1.5363,3.7972,9.626,9.9502,5.118,5.9981,5.9594,8.7678,5.6649,19.572,5.3633,10.307
609,5.386,32.139,25.282,51.273,34.309,31.896,36.948,19.284,39.342,5.832,6.915,11.783,8.5991,2.33,2.2103,0.93543,2.4966,0,8.6924,0,2.0373
612,5.4125,0,1.7419,7.5148,8.4757,15.247,23.31,20.541,48.725,14.1,24.324,39.467,38.383,26.05,31.54,30.038,32.485,28.279,57.393,23.963,37.585
615,5.4391,0,0,0,0,0,0,0,0,0,0,0,0,0,0,0,0,0,1.5884,0,0.062008
618,5.4656,0,0,0,0,0,0,0,0,0,0,0,0,0,0,0,0,0,0,0,0
621,5.4921,0.39768,0,0,0,0,0,0,0,0,0,0,0,0,0,0,0,0,0,0,0
624,5.5187,7.2138,6.7463,13.09,12.194,12.147,12.866,11.242,17.874,5.0346,7.4982,10.1,9.3753,6.5598,6.6233,5.8903,7.7759,4.9234,10.503,4.0827,6.8086
627,5.5452,0,0,0,0,0,0,0,0,0,0,0,0,0,0,0,0,0,0,0,0
630,5.5717,0.74033,0.6898,1.0202,0.67243,0.40424,0,0,0.0046347,0,0,0,0,0,0,0,0,0,0,0,0
633,5.5983,4.551,2.4528,1.5942,0,0,0,0,0,0,0,0,0,0,0,0,0,0,0.098419,0,0
636,5.6248,19.165,19.131,34.964,32.788,33.453,35.45,30.888,47.53,15.054,20.536,25.853,24.398,17.598,16.582,15.338,20.479,13.785,25.662,11.455,18.277
639,5.6513,0,0,0,0,0,0,0,0,0,0,0.43977,0.59024,0.4207,0.65035,0.96669,1.9396,1.3029,3.4047,1.5556,2.0537
642,5.6779,1.8804,0.88146,2.3097,0.5818,0.34823,0.47596,0,0.18373,0,0,0,0,0,0,0,0,0,0,0,0
645,5.7044,0.0092649,1.476,3.9679,4.8433,7.2792,10.141,7.5915,15.966,3.7727,6.6884,9.982,8.4321,5.1176,5.8519,4.9714,5.0334,4.053,8.1428,2.4501,5.3339
648,5.7309,0.42115,0.22995,0.85246,0.24553,0,0,0,0,0,0,0,0,0,0.66907,0.89878,0.81458,1.3278,3.6235,0.88015,2.2451
651,5.7575,5.867,0.42105,1.3758,0,0,0,0,0,0,0,0,0,0,0,0,0.21237,0,0.26716,0.09057,0.23733
654,5.784,56.938,48.28,89.574,67.018,64.869,70.188,41.944,64.949,16.658,19.682,26.087,20.248,10.922,10.527,8.437,8.7271,6.1391,11.04,3.4922,7.5445
657,5.8105,21.358,13.911,28.274,23.159,32.551,43.757,37.835,80.641,24.098,42.849,65.571,64.542,44.124,52.615,50.745,55.79,48.326,90.683,40.207,63.565
660,5.8371,45.278,46.205,87.045,75.885,80.081,89.399,67.505,110.46,32.282,45.342,59.713,54.986,35.555,36.758,33.31,41.848,30.054,58.061,24.266,41.123
663,5.8636,0,0,0,0,0.58094,3.382,5.2927,15.946,4.2368,9.8977,17.252,19.294,13.279,17.324,18.156,21.077,18.416,35.753,16.726,25.922
666,5.8901,6.3882,4.3898,12.454,7.5781,10.041,12.278,6.9897,13.191,1.896,3.6823,5.042,4.0981,1.9088,2.0568,0.97264,1.0137,0.15379,2.507,0,0.55717
669,5.9166,13.661,12.206,25.395,19.346,22.96,27.152,18.567,33.73,7.3126,12.421,18.345,16.897,9.5883,10.85,9.2795,10.749,7.6044,15.907,5.8967,11.564
672,5.9432,2.4045,3.1019,7.7105,8.1945,11.54,14.613,13.769,27.783,7.8687,15.077,22.426,22.293,15.202,17.363,17.146,21.223,16.504,33.996,14.466,23.643
675,5.9697,0,0,0,0,0,0,0,0,0,0,0,0,0,0,0,0,0,0,0,0
678,5.9962,0,0,0,0,0,0,0,0,0,0,0,0,0,0,0,0,0,0,0,0
681,6.0228,6.1805,1.51,4.1892,0.84753,0,0,0,0,0,0,0,0,0,0,0,0,0,0,0,0
684,6.0493,82.542,60.457,110.74,74.94,66.629,71.784,40.507,63.683,14.065,17.376,23.933,18.729,9.0403,8.7881,7.1441,7.5064,5.1976,12.374,3.0643,7.1312
687,6.0758,35.079,36.17,82.162,74.939,96.247,123.51,98.405,186.55,57.522,90.582,130.58,121.42,81.586,91.039,85.625,91.84,77.865,142.66,62.228,98.74
690,6.1024,17.102,18.02,43.929,38.175,48.409,61.111,44.382,89.905,21.501,37.662,61.049,56.484,35.882,42.25,38.68,43.478,37.507,78.517,29.674,50.055
693,6.1289,10.542,10.503,24.041,21.906,24.586,28.044,22.42,45.054,8.5571,18.167,31.501,31.231,19.927,22.008,22.7,27.178,22.394,51.249,18.256,32.748
696,6.1554,0,0,0,0,0,0,0,3.5094,0,2.1022,4.6451,4.8544,2.6454,2.8141,3.7931,5.4495,4.0547,12.866,3.7333,6.5793
699,6.182,33.104,26.92,43.625,30.954,29.883,25.844,19.461,25.926,6.3683,7.3904,9.52,8.6184,5.9058,4.526,3.7555,5.115,2.7911,6.1829,1.9826,3.9403
702,6.2085,4.7526,5.8114,14.64,16.859,19.466,24.937,24.252,44.76,14.575,25.122,33.818,32.549,24.108,23.961,25.379,32.787,23.297,46.883,21.547,32.062
705,6.235,0,0,0,0,0,0,0,0,0,0,0,0,0,0,0,0,0,0,0,0
708,6.2616,0,0,0,0,0,0,0,0,0,0,0,0,0,0,0,0,0,0,0,0
711,6.2881,25.129,16.899,31.92,19.645,17.213,17.567,8.8911,15.75,2.0757,2.6797,4.3918,2.9321,1.1761,1.0242,0.5915,0.78854,0,1.5424,0,0.56729
714,6.3146,13.606,16.727,34.494,32.73,42.495,52.457,40.929,76.164,22.215,34.297,48.381,43.277,28.475,30.729,27.858,30.105,23.896,45.44,18.028,30.918
717,6.3412,2.4547,3.8448,8.6455,10.297,13.352,15.652,14.396,29.704,7.7465,14.487,23.54,23.705,16.754,18.737,19.391,23.465,19.184,41.431,16.768,26.549
720,6.3677,5.5203,2.1928,4.0426,0,0,0,0,0,0,0,0,0,0,0,0,0,0,0.90073,0,0
723,6.3942,11.019,14.966,27.458,22.017,27.973,31.766,22.24,38.097,10.8,14.561,19.718,16.314,9.9488,9.5443,8.4518,8.785,6.2908,12.58,4.1279,8.4319
726,6.4208,9.3965,12.383,24.426,22.182,26.488,29.109,26.754,46.573,14.174,21.877,32.727,32.547,23.149,25.541,24.471,29.808,23.429,46.899,19.786,31.344
729,6.4473,0.27194,0,0,0,0,0,0,0,0,0,1.0392,1.7881,1.1058,2.0254,2.1821,3.7105,2.6012,7.311,2.5033,4.3442
732,6.4738,3.3921,1.4332,6.4949,3.6297,3.5574,5.326,2.7467,7.8646,0,1.078,2.8343,2.0402,0.29584,0.56796,0.46908,0.58623,0,2.1216,0,0.63115
735,6.5004,20.746,18.05,37.795,29.947,31.029,33.621,23.298,41.236,7.6988,12.131,19.337,16.057,8.522,8.3876,6.5031,9.5387,4.9761,16.091,2.7417,7.7233
738,6.5269,3.9487,4.3804,12.881,12.777,15.098,21.873,18.442,40.021,9.6803,19.316,30.868,29.21,18.943,21.046,21.044,26.223,19.586,44.877,16.391,28.655
741,6.5534,0,0,0,0,0,1.4262,1.3284,6.7753,0.29494,2.8427,6.96,5.8607,3.134,4.603,4.3732,6.0397,4.1099,14.211,3.0703,6.8397
744,6.5799,0,0,0,0,0,0,0,0,0,0,0,0,0,0,0,0,0,0,0,0
747,6.6065,0,0,0,0,0,0,0,0,0,0,0,0,0,0,0,0,0,0,0,0
750,6.633,9.6869,3.4774,7.3733,2.9832,1.2142,0.90581,0,0,0,0,0,0,0,0,0,0,0,0,0,0
753,6.6595,6.2922,8.6479,22.208,20.005,24.48,29.974,20.161,37.427,8.8106,13.25,18.139,15.103,8.567,8.712,7.4309,8.1454,5.5538,11.819,3.4388,7.8264
756,6.6861,4.8888,3.1672,8.5597,5.215,6.9301,8.2516,6.8878,18.954,1.2794,6.8605,14.36,14.621,8.8952,12.669,11.44,13.565,11.574,26.781,9.1298,16.978
759,6.7126,0.45226,0.63731,4.4247,4.4552,4.6316,6.2262,5.9169,13.887,2.0572,5.7798,9.7766,9.9923,5.675,6.4605,6.7933,10.408,6.7829,17.084,5.7511,10.664
762,6.7391,2.7381,1.0275,3.0069,1.0516,0.36204,0,0,0.11057,0,0,0,0,0,0,0,0,0,0,0,0
765,6.7657,4.5803,1.903,7.301,3.7438,1.2865,1.8526,0,1.4876,0,0.30155,0.81412,1.4367,1.2151,1.5031,1.8317,3.0982,1.7048,4.6001,1.9426,3.2089
768,6.7922,0.2886,1.4121,5.8715,6.1203,8.3424,11.897,8.0969,18.19,4.7326,7.1806,10.908,9.743,5.6324,6.6796,5.3097,5.331,4.1789,7.6386,3.3115,5.5443
771,6.8187,3.4234,0,0,0,0,0,0,0,0,0.43741,1.9111,2.3769,1.5855,2.5357,2.3606,2.9702,2.662,6.0142,2.402,4.4618
774,6.8453,31.947,27.606,55.457,40.441,37.727,40.809,23.089,36.473,6.7407,8.3584,10.695,8.0816,3.2033,2.6713,1.5201,1.5692,0.1134,2.3371,0,0.33881
777,6.8718,13.358,12.536,35.461,28.977,37.591,48.603,38.511,79.668,19.73,35.877,55.633,52.811,34.336,40.02,37.863,40.72,34.185,67.149,27.064,44.751
780,6.8983,11.896,10.475,27.018,20.566,27.997,34.231,25.755,56.172,9.7144,20.747,35.529,33.126,18.599,23.073,20.245,23.818,18.858,44.808,13.87,26.999
783,6.9249,19.229,19.47,43.609,40.011,43.983,48.863,41.79,73.288,18.244,29.48,44.58,43.151,27.622,29.379,27.089,35.45,25.482,57.07,19.846,36.196
786,6.9514,0,0,0,0,0,1.2031,2.2595,9.024,1.1067,5.2939,9.4812,10.505,6.545,7.5129,9.1408,13.325,9.7186,25.78,8.9622,15.386
789,6.9779,2.2551,1.3168,3.8305,1.6197,0.92258,0.99241,0,0,0,0,0,0,0,0,0,0,0,0,0,0
792,7.0045,0,0,0,0,1.1474,2.3509,1.9556,5.8292,1.2105,2.7339,3.7672,3.7469,2.1937,2.4189,1.963,1.9575,1.7763,3.7734,1.0776,2.5676
795,7.031,6.0071,4.7391,8.8936,5.9036,4.7441,4.1332,2.2511,3.2183,0,0,0,0,0,0,0,0,0,0,0,0
798,7.0575,0,0.48243,2.9547,3.3973,4.5522,6.6933,6.5996,13.14,3.1086,5.945,9.116,8.8266,5.8274,6.0697,5.8646,7.5384,5.3625,11.422,3.8794,7.5224
801,7.0841,0,0,0,0,0,0,0,0,0,0,0,0,0,0,0,0,0,0,0,0
804,7.1106,3.1304,0.15817,1.3097,0,0,0,0,0,0,0,0,0,0,0,0,0,0,0,0,0
807,7.1371,20.059,16.358,32.42,23.32,21.335,23.681,12.642,20.257,4.0234,5.1818,6.6539,4.6411,2.0137,1.524,1.3285,1.2363,0.51475,2.0209,0.021263,1.2991
810,7.1637,0,1.0535,5.7986,7.4909,14.125,20.898,18.449,40.4,12.241,21.582,31.521,29.951,20.045,22.932,22.713,23.867,20.395,38.808,16.32,26.692
813,7.1902,8.8573,4.3624,7.585,3.7584,1.8822,0,0,0,0,0,0,0,0,0.79337,0.94135,1.2191,1.919,5.6815,1.464,2.9165
816,7.2167,3.47,2.5744,11.73,11.333,12.131,16.026,12.164,23.195,4.8336,7.7331,10.953,9.8502,5.5205,4.3441,4.1388,6.0324,3.2296,7.6253,2.6704,4.7011
819,7.2433,1.1594,0.76545,5.8162,4.1866,5.3906,7.6929,3.5916,10.676,0,1.0437,3.876,3.9902,0.12933,0.55014,0,0.25017,0,3.1692,0.07143,0.40716
822,7.2698,0,0,0,0,0,0,0,1.5205,0,0.80563,2.3874,2.1925,1.0911,1.7641,1.6622,1.579,1.4771,4.4702,1.2693,2.4936
825,7.2963,2.7124,3.0415,5.4394,4.2828,4.2418,3.8457,3.266,4.586,1.0033,1.4999,1.7997,1.865,0.98413,1.0152,0.36633,1.0166,0.082535,0.92804,0,0.062818
828,7.3228,1.0937,0,0,0,0,0,0,0,0,0,0,0,0,0,0,0,0,0,0,0
831,7.3494,0,0.79355,2.6913,2.5579,4.5948,5.8434,3.656,9.4283,1.5614,3.2354,5.341,4.0802,1.7174,1.7485,1.5998,1.9576,1.054,3.1973,0.51338,1.9053
834,7.3759,1.2303,0.81917,1.7762,1.0553,0.32062,0,0.28954,3.1721,0,1.4228,4.0057,4.4598,2.9557,4.4968,3.6703,4.9317,4.035,9.9959,2.8883,6.4245
837,7.4024,10.213,6.5479,8.2318,2.8988,2.5218,0.33763,0,0,0,0,0,0,0,0,0,0,0,0,0,0
840,7.429,35.072,33.592,60.484,52.078,52.267,53.605,44.056,69.264,20.985,28.903,38.332,35.12,24.666,25.288,20.498,27.303,18.249,36.262,14.725,24.365
843,7.4555,0.62209,2.1586,6.28,8.0324,11.228,15.414,13.986,28.734,7.3362,14.428,21.365,19.784,13.436,13.994,14.492,18.973,13.305,30.478,11.905,19.538
846,7.482,0,0,0,0,0,0,0,0,0,0,0,0,0,0,0.22576,0.73407,0.77131,3.8668,0.57012,1.7734
849,7.5086,0.59119,1.1754,4.5339,3.819,5.2598,6.1862,4.2463,8.3014,1.3987,2.0517,3.3277,2.6246,1.0148,0.98769,0.01783,0.1797,0,0.91182,0,0.009569
852,7.5351,0,0,0.26507,0.72908,1.4662,2.192,3.0538,7.3606,1.2827,3.9424,7.6984,7.9347,5.2695,6.0346,6.2609,7.296,5.9836,14.214,4.5614,9.006
855,7.5616,6.8294,2.8365,5.5841,1.7741,0.37881,0,0,0,0,0,0,0,0,0,0,0.036461,0.10495,2.4417,0.22519,0.64292
858,7.5882,14.576,15.164,31.989,26.737,28.777,33.375,21.901,36.557,9.3735,12.314,16.037,13.097,7.3008,7.3871,5.3319,5.2575,3.8879,7.911,2.4589,4.6363
861,7.6147,0,1.1214,4.3886,5.8025,9.9848,15.523,15.074,33.995,10.099,19.312,30.498,29.714,20.187,24.469,23.617,25.705,22.591,43.717,18.602,29.715
864,7.6412,0,0,0,0,0,0,0,0,0,0,1.1578,1.5707,0.64916,1.669,1.9329,2.4644,2.5566,6.9842,2.2624,4.0291
867,7.6678,4.2747,2.4565,5.4893,2.1756,1.5491,1.2853,0,0,0,0,0,0,0,0,0,0,0,0,0,0
870,7.6943,3.1332,4.5389,11.515,10.499,13.099,15.107,10.49,19.793,3.9394,6.6442,8.9732,7.5292,4.8178,4.3781,3.6076,3.8699,2.675,5.1123,1.7084,3.3333
873,7.7208,0,0,0,0.92933,1.3254,2.624,2.6476,7.7603,1.0899,3.1312,6.3494,6.3827,4.5135,5.5954,5.1141,6.1827,5.0065,12.15,4.1782,7.4756
876,7.7474,3.0263,1.6545,4.2202,2.1133,1.6221,1.3872,0.16681,0.30892,0,0,0,0,0,0,0,0,0,0,0,0
879,7.7739,2.5736,3.1051,8.2905,7.9262,9.5845,11.411,9.4473,17.752,4.2203,7.3465,10.504,9.3086,5.8664,5.8096,5.4781,6.5948,4.4875,9.414,3.1713,6.5022
882,7.8004,0,0,0,0,0,0,0,0.87856,0,0.64984,2.0028,1.9413,1.1023,1.6648,1.5637,2.706,1.9613,5.5395,1.7492,3.1315
885,7.827,0,0,0,0,0,0,0,0,0,0,0,0,0,0,0,0,0,0,0,0
888,7.8535,0,0,0,0,0,0,0,0,0,0,0,0,0,0,0,0,0,0,0,0
891,7.88,0,0,0,0,0,0,0,0,0,0,0,0,0,0,0,0,0,0,0,0
894,7.9066,0,0,0,0,0,0,0,0,0,0,0,0,0,0,0,0,0,0,0,0
897,7.9331,0.37887,0.0079653,1.1445,0.17458,0.21419,0.2912,0,0.042594,0,0,0,0,0,0,0,0,0,0.0032495,0,0
900,7.9596,0,0,0,0,0,0,0,0.52487,0,0.031323,0.093663,0.0675,0.044657,0.14927,0,0,0,0,0,0
903,7.9861,1.8758,0.55848,1.5472,0,0,0,0,0,0,0,0,0,0,0,0,0,0,0,0,0
906,8.0127,2.2591,1.2986,4.7212,3.898,4.92,5.1189,5.6016,10.229,2.645,4.925,6.3998,6.2157,4.3092,4.3361,3.9725,5.9201,3.9212,8.0351,2.8051,5.179
909,8.0392,2.3087,1.9566,4.8564,2.3885,2.3277,2.6817,0.15822,0.64407,0,0,0,0,0,0,0,0,0,0,0,0
912,8.0657,0,0,0,0,1.5973,3.349,2.9073,10.265,2.0892,4.2212,7.7403,7.0937,4.7493,5.5794,5.2988,5.4774,4.3944,10.267,2.8578,6.1157
915,8.0923,0,0,0.53236,0.26238,0.36167,0.92058,0,2.8034,0,0.056403,1.1956,0.69938,0.092184,0.24286,0.20122,0.89815,0.39122,3.5283,0.088948,0.96041
918,8.1188,0,0,0,0,0,0,0,0,0,0,0,0,0,0,0,0.077736,0,0.50608,0,0.083041
921,8.1453,3.091,3.751,8.6447,6.526,6.0914,6.2077,2.7003,5.8519,0.33595,0.11942,0,0,0,0,0,0,0,0,0,0
924,8.1719,5.1283,1.162,1.2294,0,0,0.28276,0.26671,8.4592,1.2027,2.753,4.5772,4.4572,2.8705,3.538,3.5658,3.7976,3.0822,8.5721,2.2419,4.299
927,8.1984,19.376,16.056,32.368,24.671,21.179,23.067,13.09,23.395,3.4116,4.4542,6.0007,4.4652,1.9403,1.3046,0.76253,1.798,0.097933,5.6204,0,0.88418
930,8.2249,1.4635,3.7658,11.802,13.527,19.94,27.145,22.622,47.701,13.491,22.12,30.919,28.567,18.864,20.003,18.733,20.827,15.97,33.762,12.143,21.482
933,8.2515,0,0,0,0,0,0,0,2.967,0,1.0803,4.2025,4.6471,3.401,4.9419,5.0602,6.3729,6.0348,16.699,5.4417,9.3783
936,8.278,0,0,0,0,0,0,0,0,0,0,0,0,0,0,0,0,0,0,0,0
939,8.3045,0,0,0.049824,0.015808,0.044209,0.10355,0.16064,0.24814,0,0,0,0,0,0,0,0,0,0,0,0
942,8.3311,1.7857,0.63492,1.8637,0.69026,0.51049,0.32189,0,0,0,0,0,0,0,0,0,0,0,0,0,0
945,8.3576,3.2437,3.0286,8.4757,7.3406,7.6197,8.7215,5.3273,11.03,1.0863,2.1111,3.834,3.0925,0.84448,1.0127,0.62834,1.1483,0,1.5163,0.0069689,1.0266
948,8.3841,0,0,0.19448,0.76055,2.5906,3.4156,3.0968,9.5249,1.9611,5.2024,8.3174,8.1644,4.8434,6.061,6.3381,6.6834,5.0809,13.007,4.4477,8.5522
951,8.4107,0.08095,0,0,0,0,0,0,0,0,0,0,0,0,0,0,0,0,1.1427,0,0
954,8.4372,0.10692,0.31551,1.856,1.4494,1.027,1.283,0.48155,1.3085,0.061797,0.12158,0.58261,0.5012,0,0,0,0,0,0,0,0
957,8.4637,0,0,0,0,0,0,0,0,0,0,0.16854,0,0,0,0.25487,0,0.20577,1.0488,0.2376,0.45435
960,8.4903,0,0,0,0,0,0,0,0,0,0,0,0,0,0,0,0,0,0,0,0
963,8.5168,0.25092,0,0.0087814,0,0,0,0,0,0,0,0,0,0,0,0,0,0,0,0,0
966,8.5433,0,0,0.71868,0.40321,0.27674,0.80416,0.16772,2.313,0.1823,0.019724,0.72861,0.67149,0,0,0,0,0,0,0,0
969,8.5699,0,0,0,0,0,0.22361,0,2.7441,0.22386,1.0526,2.7831,2.2426,1.3033,1.9509,1.9961,1.4879,0.73615,4.9345,1.0041,2.2615
972,8.5964,3.688,1.0345,3.0327,0.48979,0,0,0,0,0,0,0,0,0,0,0,0.15193,0.55508,2.0669,0,0.73426
975,8.6229,6.3079,5.0298,14.016,10.823,10.991,13.44,8.4427,15.549,2.496,4.2168,4.8275,4.0669,1.8076,0.90361,0.19085,1.1516,0,1.2331,0,0.39754
978,8.6494,2.1843,1.7666,8.3464,7.0703,8.5806,12.134,8.9959,21.649,3.9832,8.6825,14.419,12.568,7.8933,8.8316,7.8609,10.201,7.1658,17.375,4.9773,10.962
981,8.676,0,0,0,0,0.40568,1.2719,0.97249,6.124,0.12634,2.4592,4.7678,3.8929,1.8664,2.1476,3.2076,4.1991,2.8529,9.2574,2.0498,5.109
984,8.7025,0,0,0,0,0,0,0,0,0,0,0,0,0,0,0,0,0,0,0,0
987,8.729,0,0,0,0,0,0,0,0,0,0,0,0.33902,0.36085,0,0,0.092077,0.013603,0,0,0.098969
990,8.7556,5.9961,6.6341,11.997,8.9058,10.062,9.6768,5.9132,10.894,1.2637,1.323,1.6371,1.9375,0.69287,0.34725,0,0,0,0.38847,0,0
993,8.7821,0,0,0.065398,0.88098,2.6694,4.3612,4.7391,14.313,2.0135,5.5481,8.5672,7.5979,5.9094,5.813,5.8224,7.6263,4.8653,11.904,4.7981,7.0009
996,8.8086,3.4163,2.5938,7.4018,4.5973,4.9417,6.1955,2.0308,9.1101,0,0,0.027537,0,0,0,0,0,0,0.50604,0,0
999,8.8352,1.7136,2.9197,8.0982,7.6754,10.137,14.08,9.6795,25.301,3.6344,7.846,12.656,11.512,6.512,7.3503,6.1234,6.9588,6.0934,13.968,3.8144,8.3585
1002,8.8617,0.083196,0,0.62812,0.99469,2.2213,4.8797,5.8176,16.941,2.2069,7.343,12.747,13.344,7.907,11.107,10.019,12.042,10.152,23.863,8.139,15.149
1005,8.8882,0,0,0,0,0,0,0,0,0,0,0.80411,1.554,0.35501,0.4922,1.1191,1.5924,1.7391,5.2296,1.1107,2.8539
1008,8.9148,0.38006,0.5583,0.26428,0.86076,0.15335,0.41825,0.20342,0.091697,0,0,0,0,0,0,0,0,0,0,0,0
1011,8.9413,0.26415,0,0,0.047726,0,0,0.68953,0.35015,0.35754,0.10445,0.19541,0.42084,0.14389,0.26001,0.44007,0.14889,0,0,0,0
1014,8.9678,1.5715,1.6956,4.0139,1.6334,1.719,1.4142,0.27191,0.63043,0,0,0,0.31347,0.43321,0.27861,0.92893,0.56772,0.49558,0.17133,0,0
1017,8.9944,0,0,0,1.2258,2.1654,2.6944,1.8723,6.1669,0.41545,2.3698,4.7499,3.1316,1.9546,1.518,0.73979,0.87339,0.40391,3.9181,1.074,1.8511
1020,9.0209,0,0,0,0,0,0,0,0,0,0,0,0.0054002,0,1.185,1.151,0.79935,0.39946,1.9659,0.57285,0.68044
1023,9.0474,2.6918,2.3696,4.8651,3.0035,3.5776,4.1959,3.064,7.8329,1.7446,1.5522,3.5879,3.4877,1.2406,2.4674,0.50246,0.71491,0,1.3229,0.35064,1.0104
1026,9.074,0,0,0,0,0.11576,0,0,3.1014,0,0,2.1162,1.39,1.2115,2.3185,0.91307,1.7575,1.5851,5.8995,0.74954,3.6144
1029,9.1005,0.59328,0.70663,2.2576,0,0.90191,0.24406,0.19625,0,0,0,0,0.18331,0,0,0,0,0,0,0,0
1032,9.127,0,0.10622,0.48877,0.58099,4.9595,4.7845,4.5178,8.9654,1.1481,2.8233,4.1015,2.9511,2.121,2.8603,0.56753,2.0168,0.93067,3.793,0,2.5643
1035,9.1536,1.1117,1.1474,0.44912,0,0,0,0,0,0.26397,0.895,1.5483,0.012519,0.11331,0.60377,0.61932,2.1022,2.1333,4.9583,1.8705,2.1824
1038,9.1801,0,0.089782,0,0.89133,0,2.0282,2.5934,1.2362,0.77793,0.98078,1.2828,0,0,1.1819,2.2901,2.5253,1.2346,2.2571,2.9701,1.2511
1041,9.2066,0,0,0,0,0,0,0,0,0,0,0,0,0,0,0.065693,0,0,0,0,0
1044,9.2332,1.5323,1.3585,1.6548,2.1933,3.4015,5.5112,1.9595,1.0257,2.7613,2.2484,0,0.41432,0.72166,0,1.8164,2.4015,1.2755,1.6222,0.55051,1.0265
1047,9.2597,0,0.48214,0.94441,1.8054,0.22819,1.0899,0.068533,0.11944,3.3718,2.4675,4.6348,5.0113,4.4464,0.4727,1.5004,2.3727,4.7661,4.4027,4.6902,3.4599
1050,9.2862,0.84102,0.12507,0,1.3698,0,0,0.95817,0,0,0,0,1.9149,0,0,0,0,0,0.8855,0,0
1051,9.2951,0,0,0,0,0,0,0,0,0,0,0,0,0,0,0,0,0,0,0,0